File: XRD Lab/Au calibrated.txt
Index	X	Acquisition
0	-3.10956	0
3	-3.02075	0
6	-2.93193	1
9	-2.84311	0
12	-2.7543	2
15	-2.66548	0
18	-2.57667	0
21	-2.48785	0
24	-2.39904	3
27	-2.31022	1
30	-2.22141	0
33	-2.13259	1
36	-2.04378	0
39	-1.95496	0
42	-1.86614	1
45	-1.77733	1
48	-1.68851	1
51	-1.5997	3
54	-1.51088	1
57	-1.42207	2
60	-1.33325	0
63	-1.24444	1
66	-1.15562	1
69	-1.0668	0
72	-0.977989	1
75	-0.889174	1
78	-0.800358	0
81	-0.711543	0
84	-0.622727	1
87	-0.533912	0
90	-0.445096	2
93	-0.356281	2
96	-0.267465	0
99	-0.17865	1
102	-0.0898341	3
105	-0.00101856	2
108	0.0877969	1
111	0.176612	2
114	0.265428	2
117	0.354244	4
120	0.443059	3
123	0.531875	3
126	0.620691	1
129	0.709508	3
132	0.798324	2
135	0.887141	2
138	0.975957	2
141	1.06477	2
144	1.15359	0
147	1.24241	3
150	1.33123	1
153	1.42005	9
156	1.50886	2
159	1.59768	2
162	1.6865	3
165	1.77532	5
168	1.86414	4
171	1.95297	5
174	2.04179	7
177	2.13061	7
180	2.21943	8
183	2.30826	11
186	2.39708	12
189	2.48591	9
192	2.57473	15
195	2.66356	12
198	2.75238	51
201	2.84121	371
204	2.93004	530
207	3.01887	593
210	3.1077	589
213	3.19653	631
216	3.28536	627
219	3.37419	656
222	3.46303	659
225	3.55186	745
228	3.6407	695
231	3.72954	755
234	3.81837	814
237	3.90721	752
240	3.99605	767
243	4.08489	729
246	4.17373	780
249	4.26258	742
252	4.35142	757
255	4.44027	761
258	4.52911	792
261	4.61796	731
264	4.70681	742
267	4.79566	752
270	4.88451	794
273	4.97337	804
276	5.06222	768
279	5.15108	793
282	5.23993	811
285	5.32879	827
288	5.41765	771
291	5.50652	830
294	5.59538	820
297	5.68424	835
300	5.77311	882
303	5.86198	835
306	5.95085	863
309	6.03972	832
312	6.12859	886
315	6.21747	790
318	6.30634	824
321	6.39522	831
324	6.4841	815
327	6.57298	819
330	6.66187	868
333	6.75075	807
336	6.83964	856
339	6.92853	790
342	7.01742	880
345	7.10631	822
348	7.19521	823
351	7.2841	800
354	7.373	817
357	7.4619	829
360	7.55081	800
363	7.63971	817
366	7.72862	800
369	7.81753	851
372	7.90644	833
375	7.99535	794
378	8.08427	801
381	8.17319	874
384	8.26211	828
387	8.35103	832
390	8.43996	861
393	8.52888	797
396	8.61781	855
399	8.70675	807
402	8.79568	870
405	8.88462	817
408	8.97356	813
411	9.0625	809
414	9.15144	815
417	9.24039	807
420	9.32934	768
423	9.41829	834
426	9.50724	837
429	9.5962	850
432	9.68516	810
435	9.77412	849
438	9.86309	807
441	9.95206	824
444	10.041	842
447	10.13	779
450	10.219	815
453	10.308	774
456	10.3969	818
459	10.4859	809
462	10.5749	808
465	10.6639	853
468	10.7529	815
471	10.8419	837
474	10.9309	847
477	11.0199	785
480	11.1089	831
483	11.1979	792
486	11.2869	770
489	11.3759	825
492	11.465	837
495	11.554	839
498	11.643	821
501	11.732	832
504	11.8211	796
507	11.9101	753
510	11.9991	768
513	12.0882	764
516	12.1772	851
519	12.2663	769
522	12.3553	785
525	12.4444	753
528	12.5334	817
531	12.6225	808
534	12.7115	733
537	12.8006	765
540	12.8897	814
543	12.9788	751
546	13.0678	802
549	13.1569	731
552	13.246	737
555	13.3351	776
558	13.4242	719
561	13.5133	823
564	13.6024	788
567	13.6915	807
570	13.7806	845
573	13.8697	787
576	13.9588	751
579	14.0479	788
582	14.1371	824
585	14.2262	693
588	14.3153	770
591	14.4045	775
594	14.4936	733
597	14.5827	748
600	14.6719	734
603	14.761	743
606	14.8502	755
609	14.9394	763
612	15.0285	755
615	15.1177	728
618	15.2069	772
621	15.296	753
624	15.3852	764
627	15.4744	730
630	15.5636	679
633	15.6528	725
636	15.742	718
639	15.8312	736
642	15.9204	703
645	16.0096	704
648	16.0988	676
651	16.188	690
654	16.2773	753
657	16.3665	739
660	16.4557	703
663	16.545	719
666	16.6342	682
669	16.7234	771
672	16.8127	735
675	16.902	697
678	16.9912	712
681	17.0805	731
684	17.1697	723
687	17.259	673
690	17.3483	671
693	17.4376	669
696	17.5269	674
699	17.6162	745
702	17.7055	733
705	17.7948	698
708	17.8841	725
711	17.9734	708
714	18.0627	666
717	18.152	667
720	18.2414	692
723	18.3307	720
726	18.42	686
729	18.5094	713
732	18.5987	710
735	18.6881	678
738	18.7774	677
741	18.8668	691
744	18.9562	743
747	19.0455	658
750	19.1349	637
753	19.2243	713
756	19.3137	677
759	19.4031	685
762	19.4925	694
765	19.5819	694
768	19.6713	665
771	19.7607	671
774	19.8502	690
777	19.9396	640
780	20.029	730
783	20.1185	678
786	20.2079	656
789	20.2973	619
792	20.3868	644
795	20.4763	669
798	20.5657	622
801	20.6552	662
804	20.7447	620
807	20.8342	582
810	20.9237	621
813	21.0131	661
816	21.1027	648
819	21.1922	677
822	21.2817	602
825	21.3712	609
828	21.4607	633
831	21.5502	591
834	21.6398	603
837	21.7293	623
840	21.8189	613
843	21.9084	561
846	21.998	643
849	22.0876	612
852	22.1771	623
855	22.2667	593
858	22.3563	640
861	22.4459	592
864	22.5355	582
867	22.6251	606
870	22.7147	587
873	22.8043	576
876	22.8939	616
879	22.9836	540
882	23.0732	592
885	23.1628	594
888	23.2525	596
891	23.3421	571
894	23.4318	565
897	23.5215	577
900	23.6111	624
903	23.7008	593
906	23.7905	581
909	23.8802	576
912	23.9699	576
915	24.0596	563
918	24.1493	562
921	24.239	602
924	24.3288	567
927	24.4185	552
930	24.5082	546
933	24.598	569
936	24.6877	536
939	24.7775	584
942	24.8673	549
945	24.957	543
948	25.0468	549
951	25.1366	542
954	25.2264	521
957	25.3162	527
960	25.406	536
963	25.4958	563
966	25.5856	542
969	25.6755	536
972	25.7653	531
975	25.8551	561
978	25.945	546
981	26.0348	536
984	26.1247	527
987	26.2146	542
990	26.3045	550
993	26.3943	550
996	26.4842	543
999	26.5741	521
1002	26.664	500
1005	26.754	543
1008	26.8439	496
1011	26.9338	519
1014	27.0238	530
1017	27.1137	505
1020	27.2036	519
1023	27.2936	520
1026	27.3836	505
1029	27.4736	506
1032	27.5635	534
1035	27.6535	551
1038	27.7435	535
1041	27.8335	450
1044	27.9235	491
1047	28.0136	534
1050	28.1036	483
1053	28.1936	512
1056	28.2837	519
1059	28.3737	519
1062	28.4638	489
1065	28.5538	489
1068	28.6439	519
1071	28.734	527
1074	28.8241	498
1077	28.9142	523
1080	29.0043	528
1083	29.0944	498
1086	29.1845	472
1089	29.2747	506
1092	29.3648	470
1095	29.4549	474
1098	29.5451	503
1101	29.6352	503
1104	29.7254	437
1107	29.8156	484
1110	29.9057	465
1113	29.9959	463
1116	30.0861	496
1119	30.1763	473
1122	30.2665	468
1125	30.3567	491
1128	30.4469	486
1131	30.5371	468
1134	30.6274	437
1137	30.7176	498
1140	30.8078	506
1143	30.8981	496
1146	30.9883	458
1149	31.0786	473
1152	31.1689	446
1155	31.2591	470
1158	31.3494	452
1161	31.4397	512
1164	31.53	433
1167	31.6202	471
1170	31.7105	466
1173	31.8008	441
1176	31.8911	435
1179	31.9815	450
1182	32.0718	435
1185	32.1621	464
1188	32.2524	464
1191	32.3427	432
1194	32.4331	448
1197	32.5234	467
1200	32.6138	461
1203	32.7041	435
1206	32.7945	429
1209	32.8848	452
1212	32.9752	444
1215	33.0655	466
1218	33.1559	440
1221	33.2463	455
1224	33.3367	428
1227	33.427	487
1230	33.5174	474
1233	33.6078	449
1236	33.6982	437
1239	33.7886	451
1242	33.879	429
1245	33.9694	454
1248	34.0598	439
1251	34.1502	455
1254	34.2406	455
1257	34.3311	454
1260	34.4215	481
1263	34.5119	452
1266	34.6023	472
1269	34.6928	516
1272	34.7832	461
1275	34.8736	492
1278	34.9641	458
1281	35.0545	485
1284	35.1449	483
1287	35.2354	464
1290	35.3258	447
1293	35.4163	448
1296	35.5067	459
1299	35.5972	439
1302	35.6877	461
1305	35.7781	422
1308	35.8686	469
1311	35.959	494
1314	36.0495	494
1317	36.14	499
1320	36.2304	452
1323	36.3209	467
1326	36.4114	459
1329	36.5018	513
1332	36.5923	501
1335	36.6828	514
1338	36.7733	493
1341	36.8637	508
1344	36.9542	499
1347	37.0447	526
1350	37.1352	545
1353	37.2257	578
1356	37.3161	653
1359	37.4066	715
1362	37.4971	774
1365	37.5876	816
1368	37.6781	1017
1371	37.7686	1006
1374	37.8591	1352
1377	37.9495	1874
1380	38.04	2766
1383	38.1305	4906
1386	38.221	9447
1389	38.3115	18502
1392	38.402	30668
1395	38.4925	37740
1398	38.5829	34589
1401	38.6734	24802
1404	38.7639	13607
1407	38.8544	7265
1410	38.9449	3981
1413	39.0354	2480
1416	39.1259	1637
1419	39.2163	1292
1422	39.3068	1108
1425	39.3973	936
1428	39.4878	970
1431	39.5783	808
1434	39.6688	861
1437	39.7592	800
1440	39.8497	750
1443	39.9402	712
1446	40.0307	717
1449	40.1211	660
1452	40.2116	630
1455	40.3021	574
1458	40.3925	585
1461	40.483	610
1464	40.5735	551
1467	40.6639	571
1470	40.7544	565
1473	40.8449	536
1476	40.9353	533
1479	41.0258	544
1482	41.1162	513
1485	41.2067	510
1488	41.2971	506
1491	41.3876	521
1494	41.478	510
1497	41.5685	475
1500	41.6589	525
1503	41.7493	488
1506	41.8398	502
1509	41.9302	451
1512	42.0206	503
1515	42.111	457
1518	42.2015	439
1521	42.2919	485
1524	42.3823	452
1527	42.4727	461
1530	42.5631	494
1533	42.6535	580
1536	42.7439	557
1539	42.8343	541
1542	42.9247	529
1545	43.0151	506
1548	43.1055	511
1551	43.1959	529
1554	43.2863	600
1557	43.3766	579
1560	43.467	635
1563	43.5574	695
1566	43.6477	810
1569	43.7381	889
1572	43.8285	1067
1575	43.9188	1228
1578	44.0091	1534
1581	44.0995	2240
1584	44.1898	3263
1587	44.2802	4690
1590	44.3705	6939
1593	44.4608	9666
1596	44.5511	11386
1599	44.6414	12674
1602	44.7317	12043
1605	44.8221	9461
1608	44.9123	6845
1611	45.0026	4731
1614	45.0929	3170
1617	45.1832	2068
1620	45.2735	1603
1623	45.3638	1151
1626	45.454	1022
1629	45.5443	853
1632	45.6345	747
1635	45.7248	605
1638	45.815	620
1641	45.9053	531
1644	45.9955	576
1647	46.0857	484
1650	46.1759	466
1653	46.2661	515
1656	46.3563	429
1659	46.4465	426
1662	46.5367	408
1665	46.6269	384
1668	46.7171	394
1671	46.8073	391
1674	46.8974	388
1677	46.9876	379
1680	47.0777	382
1683	47.1679	393
1686	47.258	325
1689	47.3482	344
1692	47.4383	315
1695	47.5284	276
1698	47.6185	319
1701	47.7086	320
1704	47.7987	309
1707	47.8888	335
1710	47.9789	295
1713	48.069	298
1716	48.159	291
1719	48.2491	303
1722	48.3391	332
1725	48.4292	294
1728	48.5192	266
1731	48.6093	269
1734	48.6993	308
1737	48.7893	248
1740	48.8794	223
1743	48.9694	275
1746	49.0594	285
1749	49.1494	276
1752	49.2394	237
1755	49.3294	245
1758	49.4194	269
1761	49.5094	256
1764	49.5994	242
1767	49.6894	253
1770	49.7793	245
1773	49.8693	245
1776	49.9593	243
1779	50.0492	221
1782	50.1392	234
1785	50.2291	235
1788	50.3191	229
1791	50.409	230
1794	50.499	246
1797	50.5889	215
1800	50.6788	250
1803	50.7688	246
1806	50.8587	223
1809	50.9486	224
1812	51.0386	212
1815	51.1285	247
1818	51.2184	213
1821	51.3083	240
1824	51.3982	241
1827	51.4881	234
1830	51.578	249
1833	51.6679	238
1836	51.7578	227
1839	51.8477	217
1842	51.9376	229
1845	52.0275	249
1848	52.1174	211
1851	52.2073	206
1854	52.2972	197
1857	52.3871	207
1860	52.477	205
1863	52.5669	220
1866	52.6567	234
1869	52.7466	217
1872	52.8365	199
1875	52.9264	201
1878	53.0163	248
1881	53.1061	213
1884	53.196	218
1887	53.2859	219
1890	53.3758	250
1893	53.4657	215
1896	53.5555	239
1899	53.6454	206
1902	53.7353	206
1905	53.8252	213
1908	53.915	224
1911	54.0049	229
1914	54.0948	224
1917	54.1847	206
1920	54.2746	195
1923	54.3644	212
1926	54.4543	218
1929	54.5442	218
1932	54.6341	214
1935	54.724	203
1938	54.8138	219
1941	54.9037	203
1944	54.9936	188
1947	55.0835	199
1950	55.1734	202
1953	55.2633	219
1956	55.3532	220
1959	55.4431	198
1962	55.533	199
1965	55.6229	235
1968	55.7128	209
1971	55.8027	212
1974	55.8926	174
1977	55.9825	165
1980	56.0724	211
1983	56.1623	228
1986	56.2522	205
1989	56.3422	208
1992	56.4321	217
1995	56.522	223
1998	56.6119	212
2001	56.7019	218
2004	56.7918	216
2007	56.8817	233
2010	56.9717	180
2013	57.0616	205
2016	57.1515	212
2019	57.2415	200
2022	57.3314	190
2025	57.4214	229
2028	57.5114	206
2031	57.6013	199
2034	57.6913	213
2037	57.7812	208
2040	57.8712	225
2043	57.9612	224
2046	58.0512	209
2049	58.1411	202
2052	58.2311	187
2055	58.3211	203
2058	58.4111	195
2061	58.5011	184
2064	58.5911	198
2067	58.6811	215
2070	58.7711	202
2073	58.8611	200
2076	58.9511	202
2079	59.0411	210
2082	59.1311	197
2085	59.2211	193
2088	59.3112	201
2091	59.4012	221
2094	59.4912	211
2097	59.5812	226
2100	59.6713	212
2103	59.7613	224
2106	59.8514	215
2109	59.9414	222
2112	60.0315	236
2115	60.1215	221
2118	60.2116	231
2121	60.3016	217
2124	60.3917	219
2127	60.4818	223
2130	60.5718	224
2133	60.6619	225
2136	60.752	220
2139	60.8421	227
2142	60.9322	232
2145	61.0223	222
2148	61.1124	210
2151	61.2025	227
2154	61.2926	242
2157	61.3827	218
2160	61.4728	203
2163	61.5629	237
2166	61.653	216
2169	61.7431	258
2172	61.8333	237
2175	61.9234	221
2178	62.0135	240
2181	62.1037	238
2184	62.1938	251
2187	62.284	266
2190	62.3741	231
2193	62.4643	239
2196	62.5544	272
2199	62.6446	243
2202	62.7348	307
2205	62.8249	327
2208	62.9151	321
2211	63.0053	309
2214	63.0955	350
2217	63.1857	331
2220	63.2759	370
2223	63.3661	417
2226	63.4563	453
2229	63.5465	519
2232	63.6367	551
2235	63.7269	723
2238	63.8171	776
2241	63.9074	1043
2244	63.9976	1320
2247	64.0878	1904
2250	64.1781	2682
2253	64.2683	3699
2256	64.3586	4837
2259	64.4488	6046
2262	64.5391	6820
2265	64.6294	7350
2268	64.7196	6828
2271	64.8099	6165
2274	64.9002	4971
2277	64.9905	3772
2280	65.0807	2836
2283	65.171	2030
2286	65.2613	1525
2289	65.3516	1132
2292	65.4419	852
2295	65.5323	746
2298	65.6226	636
2301	65.7129	538
2304	65.8032	478
2307	65.8936	490
2310	65.9839	430
2313	66.0742	460
2316	66.1646	397
2319	66.2549	407
2322	66.3453	442
2325	66.4357	446
2328	66.526	350
2331	66.6164	369
2334	66.7068	361
2337	66.7972	318
2340	66.8876	313
2343	66.9779	277
2346	67.0683	313
2349	67.1588	266
2352	67.2492	291
2355	67.3396	278
2358	67.43	235
2361	67.5204	258
2364	67.6109	262
2367	67.7013	251
2370	67.7917	256
2373	67.8822	240
2376	67.9726	248
2379	68.0631	249
2382	68.1536	242
2385	68.244	229
2388	68.3345	249
2391	68.425	245
2394	68.5155	230
2397	68.606	257
2400	68.6965	232
2403	68.787	248
2406	68.8775	258
2409	68.968	269
2412	69.0585	235
2415	69.1491	243
2418	69.2396	229
2421	69.3301	211
2424	69.4207	230
2427	69.5112	210
2430	69.6018	239
2433	69.6923	225
2436	69.7829	236
2439	69.8735	222
2442	69.9641	220
2445	70.0546	233
2448	70.1452	237
2451	70.2358	209
2454	70.3264	212
2457	70.417	254
2460	70.5076	199
2463	70.5982	236
2466	70.6888	241
2469	70.7794	253
2472	70.87	252
2475	70.9606	237
2478	71.0512	230
2481	71.1419	251
2484	71.2325	234
2487	71.3231	227
2490	71.4137	234
2493	71.5044	220
2496	71.595	226
2499	71.6856	244
2502	71.7762	251
2505	71.8669	244
2508	71.9575	246
2511	72.0481	246
2514	72.1388	262
2517	72.2294	229
2520	72.3201	261
2523	72.4107	278
2526	72.5013	321
2529	72.592	314
2532	72.6826	332
2535	72.7732	319
2538	72.8639	276
2541	72.9545	279
2544	73.0451	255
2547	73.1358	255
2550	73.2264	246
2553	73.317	244
2556	73.4077	272
2559	73.4983	275
2562	73.5889	270
2565	73.6795	272
2568	73.7702	297
2571	73.8608	257
2574	73.9514	232
2577	74.042	244
2580	74.1326	264
2583	74.2232	275
2586	74.3138	260
2589	74.4044	310
2592	74.495	279
2595	74.5856	270
2598	74.6762	302
2601	74.7668	309
2604	74.8574	266
2607	74.948	309
2610	75.0385	309
2613	75.1291	310
2616	75.2197	296
2619	75.3102	303
2622	75.4008	343
2625	75.4914	373
2628	75.5819	380
2631	75.6724	382
2634	75.763	388
2637	75.8535	409
2640	75.944	419
2643	76.0345	471
2646	76.1251	462
2649	76.2156	508
2652	76.3061	552
2655	76.3965	675
2658	76.487	734
2661	76.5775	868
2664	76.668	1018
2667	76.7584	1266
2670	76.8489	1570
2673	76.9394	2169
2676	77.0298	2866
2679	77.1202	3740
2682	77.2107	4685
2685	77.3011	6067
2688	77.3915	6842
2691	77.4819	7421
2694	77.5723	7390
2697	77.6627	7039
2700	77.7531	6222
2703	77.8435	5205
2706	77.9339	4188
2709	78.0243	3193
2712	78.1147	2579
2715	78.205	1930
2718	78.2954	1521
2721	78.3858	1253
2724	78.4761	964
2727	78.5665	869
2730	78.6568	744
2733	78.7472	678
2736	78.8375	607
2739	78.9278	551
2742	79.0182	504
2745	79.1085	487
2748	79.1988	467
2751	79.2891	409
2754	79.3794	391
2757	79.4697	421
2760	79.56	375
2763	79.6503	391
2766	79.7406	371
2769	79.8309	351
2772	79.9212	400
2775	80.0115	393
2778	80.1017	376
2781	80.192	377
2784	80.2823	372
2787	80.3726	396
2790	80.4628	397
2793	80.5531	405
2796	80.6433	414
2799	80.7336	478
2802	80.8239	520
2805	80.9141	625
2808	81.0043	741
2811	81.0946	874
2814	81.1848	1120
2817	81.2751	1437
2820	81.3653	1681
2823	81.4555	1933
2826	81.5458	2167
2829	81.636	2317
2832	81.7262	2368
2835	81.8165	2242
2838	81.9067	2085
2841	81.9969	1752
2844	82.0871	1491
2847	82.1773	1132
2850	82.2676	913
2853	82.3578	703
2856	82.448	541
2859	82.5382	449
2862	82.6284	434
2865	82.7186	399
2868	82.8088	333
2871	82.899	310
2874	82.9893	308
2877	83.0795	298
2880	83.1697	268
2883	83.2599	243
2886	83.3501	243
2889	83.4403	264
2892	83.5305	268
2895	83.6207	266
2898	83.7109	243
2901	83.8011	222
2904	83.8913	230
2907	83.9815	214
2910	84.0717	273
2913	84.1619	244
2916	84.2521	215
2919	84.3423	214
2922	84.4325	211
2925	84.5227	190
2928	84.6129	216
2931	84.7031	216
2934	84.7933	220
2937	84.8835	211
2940	84.9737	206
2943	85.0639	197
2946	85.1541	202
2949	85.2443	200
2952	85.3346	210
2955	85.4248	200
2958	85.515	193
2961	85.6052	199
2964	85.6954	195
2967	85.7856	170
2970	85.8758	185
2973	85.9661	200
2976	86.0563	181
2979	86.1465	196
2982	86.2367	188
2985	86.327	183
2988	86.4172	171
2991	86.5074	200
2994	86.5977	196
2997	86.6879	184
3000	86.7781	175
3003	86.8684	197
3006	86.9586	176
3009	87.0489	173
3012	87.1391	179
3015	87.2294	186
3018	87.3196	196
3021	87.4099	170
3024	87.5001	170
3027	87.5904	179
3030	87.6807	179
3033	87.7709	169
3036	87.8612	186
3039	87.9515	178
3042	88.0418	159
3045	88.1321	182
3048	88.2224	173
3051	88.3126	191
3054	88.4029	175
3057	88.4932	160
3060	88.5835	167
3063	88.6738	168
3066	88.7641	183
3069	88.8545	173
3072	88.9448	171
3075	89.0351	158
3078	89.1254	166
3081	89.2157	161
3084	89.3061	161
3087	89.3964	182
3090	89.4867	162
3093	89.577	158
3096	89.6674	163
3099	89.7577	157
3102	89.848	191
3105	89.9384	165
3108	90.0287	164
3111	90.1191	155
3114	90.2094	160
3117	90.2997	186
3120	90.3901	158
3123	90.4804	193
3126	90.5708	155
3129	90.6611	174
3132	90.7515	183
3135	90.8418	162
3138	90.9322	188
3141	91.0225	177
3144	91.1129	143
3147	91.2032	167
3150	91.2936	152
3153	91.3839	167
3156	91.4743	161
3159	91.5646	152
3162	91.655	157
3165	91.7453	143
3168	91.8357	170
3171	91.926	149
3174	92.0164	144
3177	92.1067	157
3180	92.1971	177
3183	92.2874	149
3186	92.3778	189
3189	92.4681	150
3192	92.5585	172
3195	92.6488	136
3198	92.7392	178
3201	92.8295	143
3204	92.9198	167
3207	93.0102	171
3210	93.1005	162
3213	93.1909	169
3216	93.2812	175
3219	93.3715	153
3222	93.4619	150
3225	93.5522	164
3228	93.6425	155
3231	93.7328	147
3234	93.8232	165
3237	93.9135	152
3240	94.0038	175
3243	94.0941	177
3246	94.1844	164
3249	94.2747	192
3252	94.365	157
3255	94.4553	186
3258	94.5456	154
3261	94.6359	164
3264	94.7262	156
3267	94.8165	178
3270	94.9068	184
3273	94.9971	193
3276	95.0874	174
3279	95.1776	216
3282	95.2679	192
3285	95.3582	187
3288	95.4484	206
3291	95.5387	188
3294	95.629	201
3297	95.7192	199
3300	95.8095	212
3303	95.8997	204
3306	95.99	195
3309	96.0802	200
3312	96.1704	227
3315	96.2607	221
3318	96.3509	220
3321	96.4412	194
3324	96.5314	264
3327	96.6216	268
3330	96.7118	277
3333	96.8021	306
3336	96.8923	360
3339	96.9825	401
3342	97.0727	412
3345	97.163	460
3348	97.2532	485
3351	97.3434	571
3354	97.4336	634
3357	97.5238	693
3360	97.614	729
3363	97.7043	767
3366	97.7945	839
3369	97.8847	808
3372	97.9749	830
3375	98.0651	771
3378	98.1553	765
3381	98.2455	682
3384	98.3357	670
3387	98.4259	557
3390	98.5161	505
3393	98.6063	453
3396	98.6965	417
3399	98.7867	369
3402	98.8769	353
3405	98.9671	313
3408	99.0573	301
3411	99.1475	272
3414	99.2378	288
3417	99.328	257
3420	99.4182	267
3423	99.5084	232
3426	99.5986	218
3429	99.6888	205
3432	99.779	223
3435	99.8692	223
3438	99.9594	239
3441	100.05	226
3444	100.14	248
3447	100.23	191
3450	100.32	196
3453	100.41	211
3456	100.501	173
3459	100.591	195
3462	100.681	188
3465	100.771	184
3468	100.862	197
3471	100.952	199
3474	101.042	177
3477	101.132	187
3480	101.223	183
3483	101.313	174
3486	101.403	179
3489	101.493	204
3492	101.583	204
3495	101.674	209
3498	101.764	191
3501	101.854	195
3504	101.944	192
3507	102.035	188
3510	102.125	187
3513	102.215	177
3516	102.305	204
3519	102.396	194
3522	102.486	186
3525	102.576	203
3528	102.667	187
3531	102.757	178
3534	102.847	194
3537	102.937	196
3540	103.028	217
3543	103.118	196
3546	103.208	185
3549	103.299	190
3552	103.389	210
3555	103.479	193
3558	103.57	208
3561	103.66	194
3564	103.75	211
3567	103.841	185
3570	103.931	191
3573	104.021	207
3576	104.112	218
3579	104.202	205
3582	104.292	192
3585	104.383	204
3588	104.473	209
3591	104.563	188
3594	104.654	225
3597	104.744	183
3600	104.835	211
3603	104.925	206
3606	105.015	204
3609	105.106	196
3612	105.196	224
3615	105.287	210
3618	105.377	202
3621	105.467	237
3624	105.558	225
3627	105.648	199
3630	105.739	211
3633	105.829	231
3636	105.92	234
3639	106.01	229
3642	106.101	231
3645	106.191	240
3648	106.282	246
3651	106.372	203
3654	106.463	277
3657	106.553	225
3660	106.644	231
3663	106.734	269
3666	106.825	256
3669	106.915	235
3672	107.006	235
3675	107.096	238
3678	107.187	252
3681	107.277	231
3684	107.368	276
3687	107.459	246
3690	107.549	297
3693	107.64	277
3696	107.73	272
3699	107.821	271
3702	107.912	278
3705	108.002	310
3708	108.093	285
3711	108.183	289
3714	108.274	305
3717	108.365	332
3720	108.455	362
3723	108.546	321
3726	108.637	329
3729	108.727	427
3732	108.818	351
3735	108.909	430
3738	108.999	409
3741	109.09	452
3744	109.181	577
3747	109.271	534
3750	109.362	610
3753	109.453	635
3756	109.544	794
3759	109.634	818
3762	109.725	994
3765	109.816	1131
3768	109.906	1432
3771	109.997	1604
3774	110.088	1796
3777	110.179	2156
3780	110.269	2530
3783	110.36	2728
3786	110.451	2938
3789	110.542	2919
3792	110.632	2923
3795	110.723	2833
3798	110.814	2722
3801	110.905	2432
3804	110.995	2162
3807	111.086	1850
3810	111.177	1653
3813	111.268	1541
3816	111.359	1204
3819	111.449	1082
3822	111.54	932
3825	111.631	865
3828	111.722	795
3831	111.812	687
3834	111.903	627
3837	111.994	576
3840	112.085	587
3843	112.176	528
3846	112.266	527
3849	112.357	497
3852	112.448	542
3855	112.539	506
3858	112.63	510
3861	112.721	496
3864	112.811	501
3867	112.902	536
3870	112.993	559
3873	113.084	533
3876	113.175	569
3879	113.265	638
3882	113.356	699
3885	113.447	769
3888	113.538	835
3891	113.629	915
3894	113.72	1058
3897	113.81	1242
3900	113.901	1534
3903	113.992	2043
3906	114.083	2682
3909	114.173	3405
3912	114.264	3911
3915	114.354	3745
3918	114.445	3081
3921	114.536	1718
3924	114.626	416
3927	114.717	34
3930	114.807	15
3933	114.898	6
3936	114.988	2
3939	115.079	1
3942	115.169	0
3945	115.26	1
3948	115.35	2
3951	115.441	4
3954	115.531	4
3957	115.622	1
3960	115.712	2
3963	115.803	0
3966	115.893	3
3969	115.984	1
3972	116.074	0
3975	116.165	0
3978	116.255	1
3981	116.346	0
3984	116.437	1
3987	116.527	2
3990	116.618	0
3993	116.708	1
3996	116.799	0
3999	116.889	2
4002	116.98	1
4005	117.07	0
4008	117.161	0
4011	117.251	0
4014	117.342	1
4017	117.432	0
4020	117.523	0
4023	117.613	0
4026	117.704	0
4029	117.794	1
4032	117.885	0
4035	117.975	0
4038	118.066	0
4041	118.157	1
4044	118.247	1
4047	118.338	0
4050	118.428	0
4053	118.519	1
4056	118.609	0
4059	118.7	0
4062	118.79	0
4065	118.881	2
4068	118.971	1
4071	119.062	0
4074	119.152	1
4077	119.243	0
4080	119.333	1
4083	119.424	0
4086	119.514	2
4089	119.605	4
4092	119.695	71
4095	119.786	380