File: XRD Lab/W calibrated.txt
Index	X	Acquisition
0	-3.10956	0
3	-3.02075	0
6	-2.93193	0
9	-2.84311	0
12	-2.7543	1
15	-2.66548	0
18	-2.57667	0
21	-2.48785	0
24	-2.39904	1
27	-2.31022	0
30	-2.22141	0
33	-2.13259	0
36	-2.04378	1
39	-1.95496	1
42	-1.86614	0
45	-1.77733	1
48	-1.68851	2
51	-1.5997	0
54	-1.51088	2
57	-1.42207	4
60	-1.33325	0
63	-1.24444	0
66	-1.15562	1
69	-1.0668	1
72	-0.977989	0
75	-0.889174	1
78	-0.800358	2
81	-0.711543	0
84	-0.622727	2
87	-0.533912	0
90	-0.445096	0
93	-0.356281	0
96	-0.267465	2
99	-0.17865	1
102	-0.0898341	1
105	-0.00101856	0
108	0.0877969	2
111	0.176612	0
114	0.265428	3
117	0.354244	2
120	0.443059	2
123	0.531875	1
126	0.620691	2
129	0.709508	3
132	0.798324	2
135	0.887141	1
138	0.975957	2
141	1.06477	3
144	1.15359	2
147	1.24241	6
150	1.33123	2
153	1.42005	2
156	1.50886	2
159	1.59768	3
162	1.6865	6
165	1.77532	7
168	1.86414	7
171	1.95297	7
174	2.04179	3
177	2.13061	3
180	2.21943	7
183	2.30826	7
186	2.39708	9
189	2.48591	14
192	2.57473	10
195	2.66356	14
198	2.75238	39
201	2.84121	346
204	2.93004	474
207	3.01887	548
210	3.1077	569
213	3.19653	636
216	3.28536	573
219	3.37419	627
222	3.46303	619
225	3.55186	643
228	3.6407	662
231	3.72954	667
234	3.81837	717
237	3.90721	700
240	3.99605	705
243	4.08489	689
246	4.17373	678
249	4.26258	774
252	4.35142	738
255	4.44027	739
258	4.52911	741
261	4.61796	809
264	4.70681	722
267	4.79566	764
270	4.88451	734
273	4.97337	781
276	5.06222	745
279	5.15108	809
282	5.23993	774
285	5.32879	837
288	5.41765	771
291	5.50652	807
294	5.59538	791
297	5.68424	783
300	5.77311	761
303	5.86198	757
306	5.95085	770
309	6.03972	804
312	6.12859	844
315	6.21747	814
318	6.30634	789
321	6.39522	827
324	6.4841	865
327	6.57298	756
330	6.66187	841
333	6.75075	794
336	6.83964	850
339	6.92853	808
342	7.01742	823
345	7.10631	821
348	7.19521	845
351	7.2841	830
354	7.373	853
357	7.4619	858
360	7.55081	810
363	7.63971	843
366	7.72862	796
369	7.81753	834
372	7.90644	835
375	7.99535	810
378	8.08427	798
381	8.17319	828
384	8.26211	867
387	8.35103	878
390	8.43996	824
393	8.52888	832
396	8.61781	839
399	8.70675	792
402	8.79568	810
405	8.88462	826
408	8.97356	851
411	9.0625	777
414	9.15144	854
417	9.24039	744
420	9.32934	818
423	9.41829	855
426	9.50724	851
429	9.5962	788
432	9.68516	842
435	9.77412	845
438	9.86309	787
441	9.95206	788
444	10.041	832
447	10.13	727
450	10.219	745
453	10.308	751
456	10.3969	698
459	10.4859	810
462	10.5749	790
465	10.6639	816
468	10.7529	765
471	10.8419	789
474	10.9309	795
477	11.0199	789
480	11.1089	785
483	11.1979	744
486	11.2869	770
489	11.3759	790
492	11.465	802
495	11.554	825
498	11.643	751
501	11.732	777
504	11.8211	753
507	11.9101	773
510	11.9991	758
513	12.0882	797
516	12.1772	799
519	12.2663	788
522	12.3553	771
525	12.4444	793
528	12.5334	740
531	12.6225	741
534	12.7115	719
537	12.8006	802
540	12.8897	702
543	12.9788	766
546	13.0678	752
549	13.1569	678
552	13.246	781
555	13.3351	680
558	13.4242	775
561	13.5133	760
564	13.6024	756
567	13.6915	730
570	13.7806	744
573	13.8697	714
576	13.9588	724
579	14.0479	765
582	14.1371	743
585	14.2262	691
588	14.3153	732
591	14.4045	708
594	14.4936	696
597	14.5827	724
600	14.6719	718
603	14.761	670
606	14.8502	681
609	14.9394	738
612	15.0285	687
615	15.1177	688
618	15.2069	684
621	15.296	654
624	15.3852	727
627	15.4744	653
630	15.5636	683
633	15.6528	713
636	15.742	652
639	15.8312	662
642	15.9204	654
645	16.0096	699
648	16.0988	712
651	16.188	697
654	16.2773	673
657	16.3665	663
660	16.4557	668
663	16.545	716
666	16.6342	673
669	16.7234	637
672	16.8127	626
675	16.902	696
678	16.9912	672
681	17.0805	718
684	17.1697	694
687	17.259	679
690	17.3483	687
693	17.4376	667
696	17.5269	603
699	17.6162	660
702	17.7055	671
705	17.7948	659
708	17.8841	685
711	17.9734	678
714	18.0627	661
717	18.152	659
720	18.2414	690
723	18.3307	639
726	18.42	618
729	18.5094	642
732	18.5987	646
735	18.6881	647
738	18.7774	662
741	18.8668	620
744	18.9562	608
747	19.0455	642
750	19.1349	617
753	19.2243	638
756	19.3137	629
759	19.4031	624
762	19.4925	637
765	19.5819	640
768	19.6713	604
771	19.7607	584
774	19.8502	585
777	19.9396	615
780	20.029	650
783	20.1185	587
786	20.2079	639
789	20.2973	545
792	20.3868	660
795	20.4763	551
798	20.5657	578
801	20.6552	560
804	20.7447	631
807	20.8342	555
810	20.9237	553
813	21.0131	571
816	21.1027	531
819	21.1922	551
822	21.2817	582
825	21.3712	527
828	21.4607	568
831	21.5502	573
834	21.6398	575
837	21.7293	561
840	21.8189	503
843	21.9084	542
846	21.998	553
849	22.0876	593
852	22.1771	538
855	22.2667	568
858	22.3563	555
861	22.4459	517
864	22.5355	565
867	22.6251	529
870	22.7147	509
873	22.8043	511
876	22.8939	543
879	22.9836	529
882	23.0732	549
885	23.1628	492
888	23.2525	515
891	23.3421	513
894	23.4318	573
897	23.5215	525
900	23.6111	490
903	23.7008	539
906	23.7905	534
909	23.8802	548
912	23.9699	556
915	24.0596	518
918	24.1493	538
921	24.239	498
924	24.3288	489
927	24.4185	505
930	24.5082	520
933	24.598	563
936	24.6877	563
939	24.7775	510
942	24.8673	528
945	24.957	507
948	25.0468	509
951	25.1366	505
954	25.2264	514
957	25.3162	481
960	25.406	515
963	25.4958	529
966	25.5856	476
969	25.6755	466
972	25.7653	509
975	25.8551	474
978	25.945	462
981	26.0348	503
984	26.1247	513
987	26.2146	493
990	26.3045	494
993	26.3943	507
996	26.4842	454
999	26.5741	459
1002	26.664	507
1005	26.754	489
1008	26.8439	426
1011	26.9338	425
1014	27.0238	431
1017	27.1137	431
1020	27.2036	468
1023	27.2936	400
1026	27.3836	453
1029	27.4736	461
1032	27.5635	469
1035	27.6535	424
1038	27.7435	469
1041	27.8335	440
1044	27.9235	467
1047	28.0136	451
1050	28.1036	447
1053	28.1936	453
1056	28.2837	429
1059	28.3737	449
1062	28.4638	470
1065	28.5538	417
1068	28.6439	433
1071	28.734	515
1074	28.8241	460
1077	28.9142	473
1080	29.0043	479
1083	29.0944	436
1086	29.1845	428
1089	29.2747	469
1092	29.3648	418
1095	29.4549	419
1098	29.5451	406
1101	29.6352	410
1104	29.7254	419
1107	29.8156	386
1110	29.9057	397
1113	29.9959	410
1116	30.0861	368
1119	30.1763	393
1122	30.2665	379
1125	30.3567	370
1128	30.4469	345
1131	30.5371	358
1134	30.6274	403
1137	30.7176	392
1140	30.8078	389
1143	30.8981	367
1146	30.9883	357
1149	31.0786	365
1152	31.1689	346
1155	31.2591	339
1158	31.3494	357
1161	31.4397	347
1164	31.53	328
1167	31.6202	412
1170	31.7105	388
1173	31.8008	347
1176	31.8911	384
1179	31.9815	380
1182	32.0718	369
1185	32.1621	337
1188	32.2524	354
1191	32.3427	346
1194	32.4331	355
1197	32.5234	327
1200	32.6138	340
1203	32.7041	321
1206	32.7945	351
1209	32.8848	371
1212	32.9752	335
1215	33.0655	324
1218	33.1559	322
1221	33.2463	332
1224	33.3367	348
1227	33.427	305
1230	33.5174	332
1233	33.6078	318
1236	33.6982	320
1239	33.7886	312
1242	33.879	304
1245	33.9694	304
1248	34.0598	289
1251	34.1502	317
1254	34.2406	318
1257	34.3311	298
1260	34.4215	283
1263	34.5119	331
1266	34.6023	296
1269	34.6928	280
1272	34.7832	270
1275	34.8736	316
1278	34.9641	301
1281	35.0545	300
1284	35.1449	277
1287	35.2354	335
1290	35.3258	272
1293	35.4163	301
1296	35.5067	325
1299	35.5972	279
1302	35.6877	298
1305	35.7781	300
1308	35.8686	273
1311	35.959	287
1314	36.0495	276
1317	36.14	321
1320	36.2304	296
1323	36.3209	290
1326	36.4114	286
1329	36.5018	321
1332	36.5923	307
1335	36.6828	299
1338	36.7733	288
1341	36.8637	278
1344	36.9542	289
1347	37.0447	283
1350	37.1352	279
1353	37.2257	292
1356	37.3161	287
1359	37.4066	283
1362	37.4971	286
1365	37.5876	275
1368	37.6781	277
1371	37.7686	292
1374	37.8591	279
1377	37.9495	253
1380	38.04	272
1383	38.1305	255
1386	38.221	227
1389	38.3115	274
1392	38.402	248
1395	38.4925	243
1398	38.5829	231
1401	38.6734	264
1404	38.7639	259
1407	38.8544	230
1410	38.9449	266
1413	39.0354	249
1416	39.1259	262
1419	39.2163	270
1422	39.3068	299
1425	39.3973	239
1428	39.4878	251
1431	39.5783	302
1434	39.6688	330
1437	39.7592	293
1440	39.8497	381
1443	39.9402	508
1446	40.0307	645
1449	40.1211	840
1452	40.2116	1437
1455	40.3021	2731
1458	40.3925	4920
1461	40.483	7939
1464	40.5735	10605
1467	40.6639	11523
1470	40.7544	9769
1473	40.8449	7059
1476	40.9353	4156
1479	41.0258	2239
1482	41.1162	1103
1485	41.2067	665
1488	41.2971	411
1491	41.3876	339
1494	41.478	298
1497	41.5685	264
1500	41.6589	309
1503	41.7493	296
1506	41.8398	233
1509	41.9302	249
1512	42.0206	211
1515	42.111	247
1518	42.2015	265
1521	42.2919	261
1524	42.3823	248
1527	42.4727	239
1530	42.5631	197
1533	42.6535	218
1536	42.7439	216
1539	42.8343	206
1542	42.9247	223
1545	43.0151	208
1548	43.1055	211
1551	43.1959	211
1554	43.2863	215
1557	43.3766	201
1560	43.467	187
1563	43.5574	201
1566	43.6477	210
1569	43.7381	188
1572	43.8285	188
1575	43.9188	189
1578	44.0091	218
1581	44.0995	235
1584	44.1898	185
1587	44.2802	185
1590	44.3705	198
1593	44.4608	182
1596	44.5511	173
1599	44.6414	189
1602	44.7317	182
1605	44.8221	185
1608	44.9123	199
1611	45.0026	165
1614	45.0929	174
1617	45.1832	174
1620	45.2735	184
1623	45.3638	169
1626	45.454	203
1629	45.5443	182
1632	45.6345	210
1635	45.7248	162
1638	45.815	171
1641	45.9053	176
1644	45.9955	201
1647	46.0857	198
1650	46.1759	179
1653	46.2661	209
1656	46.3563	230
1659	46.4465	195
1662	46.5367	183
1665	46.6269	208
1668	46.7171	165
1671	46.8073	159
1674	46.8974	194
1677	46.9876	187
1680	47.0777	180
1683	47.1679	159
1686	47.258	178
1689	47.3482	169
1692	47.4383	194
1695	47.5284	190
1698	47.6185	165
1701	47.7086	189
1704	47.7987	200
1707	47.8888	189
1710	47.9789	174
1713	48.069	171
1716	48.159	163
1719	48.2491	185
1722	48.3391	186
1725	48.4292	178
1728	48.5192	148
1731	48.6093	166
1734	48.6993	157
1737	48.7893	173
1740	48.8794	146
1743	48.9694	156
1746	49.0594	142
1749	49.1494	164
1752	49.2394	160
1755	49.3294	146
1758	49.4194	157
1761	49.5094	176
1764	49.5994	171
1767	49.6894	151
1770	49.7793	167
1773	49.8693	173
1776	49.9593	174
1779	50.0492	164
1782	50.1392	177
1785	50.2291	168
1788	50.3191	145
1791	50.409	160
1794	50.499	178
1797	50.5889	186
1800	50.6788	160
1803	50.7688	146
1806	50.8587	152
1809	50.9486	143
1812	51.0386	151
1815	51.1285	145
1818	51.2184	170
1821	51.3083	153
1824	51.3982	160
1827	51.4881	177
1830	51.578	157
1833	51.6679	146
1836	51.7578	138
1839	51.8477	148
1842	51.9376	150
1845	52.0275	143
1848	52.1174	147
1851	52.2073	158
1854	52.2972	157
1857	52.3871	139
1860	52.477	145
1863	52.5669	164
1866	52.6567	155
1869	52.7466	146
1872	52.8365	130
1875	52.9264	144
1878	53.0163	159
1881	53.1061	147
1884	53.196	104
1887	53.2859	133
1890	53.3758	154
1893	53.4657	140
1896	53.5555	136
1899	53.6454	137
1902	53.7353	150
1905	53.8252	138
1908	53.915	132
1911	54.0049	147
1914	54.0948	134
1917	54.1847	145
1920	54.2746	138
1923	54.3644	113
1926	54.4543	132
1929	54.5442	133
1932	54.6341	128
1935	54.724	130
1938	54.8138	142
1941	54.9037	129
1944	54.9936	123
1947	55.0835	139
1950	55.1734	151
1953	55.2633	155
1956	55.3532	120
1959	55.4431	129
1962	55.533	153
1965	55.6229	147
1968	55.7128	132
1971	55.8027	145
1974	55.8926	150
1977	55.9825	133
1980	56.0724	118
1983	56.1623	158
1986	56.2522	151
1989	56.3422	119
1992	56.4321	143
1995	56.522	131
1998	56.6119	140
2001	56.7019	127
2004	56.7918	134
2007	56.8817	130
2010	56.9717	126
2013	57.0616	147
2016	57.1515	156
2019	57.2415	145
2022	57.3314	151
2025	57.4214	161
2028	57.5114	170
2031	57.6013	209
2034	57.6913	201
2037	57.7812	242
2040	57.8712	407
2043	57.9612	577
2046	58.0512	750
2049	58.1411	1019
2052	58.2311	1476
2055	58.3211	1670
2058	58.4111	1627
2061	58.5011	1632
2064	58.5911	1729
2067	58.6811	1511
2070	58.7711	1149
2073	58.8611	811
2076	58.9511	525
2079	59.0411	344
2082	59.1311	227
2085	59.2211	195
2088	59.3112	158
2091	59.4012	150
2094	59.4912	125
2097	59.5812	144
2100	59.6713	127
2103	59.7613	134
2106	59.8514	120
2109	59.9414	114
2112	60.0315	113
2115	60.1215	109
2118	60.2116	113
2121	60.3016	98
2124	60.3917	99
2127	60.4818	118
2130	60.5718	123
2133	60.6619	125
2136	60.752	99
2139	60.8421	126
2142	60.9322	100
2145	61.0223	117
2148	61.1124	102
2151	61.2025	126
2154	61.2926	99
2157	61.3827	104
2160	61.4728	120
2163	61.5629	109
2166	61.653	105
2169	61.7431	105
2172	61.8333	104
2175	61.9234	97
2178	62.0135	114
2181	62.1037	103
2184	62.1938	100
2187	62.284	100
2190	62.3741	108
2193	62.4643	120
2196	62.5544	109
2199	62.6446	102
2202	62.7348	94
2205	62.8249	88
2208	62.9151	110
2211	63.0053	90
2214	63.0955	116
2217	63.1857	91
2220	63.2759	113
2223	63.3661	98
2226	63.4563	109
2229	63.5465	119
2232	63.6367	113
2235	63.7269	108
2238	63.8171	96
2241	63.9074	102
2244	63.9976	93
2247	64.0878	99
2250	64.1781	122
2253	64.2683	96
2256	64.3586	103
2259	64.4488	101
2262	64.5391	89
2265	64.6294	106
2268	64.7196	94
2271	64.8099	107
2274	64.9002	125
2277	64.9905	88
2280	65.0807	120
2283	65.171	105
2286	65.2613	94
2289	65.3516	100
2292	65.4419	102
2295	65.5323	99
2298	65.6226	83
2301	65.7129	110
2304	65.8032	77
2307	65.8936	80
2310	65.9839	92
2313	66.0742	112
2316	66.1646	73
2319	66.2549	95
2322	66.3453	93
2325	66.4357	84
2328	66.526	89
2331	66.6164	97
2334	66.7068	95
2337	66.7972	105
2340	66.8876	118
2343	66.9779	113
2346	67.0683	93
2349	67.1588	105
2352	67.2492	96
2355	67.3396	77
2358	67.43	85
2361	67.5204	98
2364	67.6109	89
2367	67.7013	93
2370	67.7917	85
2373	67.8822	99
2376	67.9726	84
2379	68.0631	77
2382	68.1536	82
2385	68.244	74
2388	68.3345	93
2391	68.425	88
2394	68.5155	98
2397	68.606	115
2400	68.6965	88
2403	68.787	98
2406	68.8775	90
2409	68.968	93
2412	69.0585	116
2415	69.1491	99
2418	69.2396	105
2421	69.3301	116
2424	69.4207	100
2427	69.5112	96
2430	69.6018	101
2433	69.6923	102
2436	69.7829	96
2439	69.8735	98
2442	69.9641	97
2445	70.0546	99
2448	70.1452	95
2451	70.2358	112
2454	70.3264	108
2457	70.417	120
2460	70.5076	123
2463	70.5982	111
2466	70.6888	111
2469	70.7794	94
2472	70.87	98
2475	70.9606	125
2478	71.0512	100
2481	71.1419	110
2484	71.2325	97
2487	71.3231	118
2490	71.4137	113
2493	71.5044	103
2496	71.595	114
2499	71.6856	106
2502	71.7762	114
2505	71.8669	126
2508	71.9575	111
2511	72.0481	146
2514	72.1388	168
2517	72.2294	174
2520	72.3201	200
2523	72.4107	298
2526	72.5013	367
2529	72.592	532
2532	72.6826	718
2535	72.7732	1314
2538	72.8639	1754
2541	72.9545	2487
2544	73.0451	3195
2547	73.1358	3743
2550	73.2264	3947
2553	73.317	4089
2556	73.4077	3751
2559	73.4983	3244
2562	73.5889	2583
2565	73.6795	1934
2568	73.7702	1332
2571	73.8608	1024
2574	73.9514	626
2577	74.042	396
2580	74.1326	315
2583	74.2232	177
2586	74.3138	176
2589	74.4044	135
2592	74.495	142
2595	74.5856	121
2598	74.6762	126
2601	74.7668	129
2604	74.8574	107
2607	74.948	129
2610	75.0385	115
2613	75.1291	117
2616	75.2197	126
2619	75.3102	99
2622	75.4008	121
2625	75.4914	113
2628	75.5819	104
2631	75.6724	99
2634	75.763	83
2637	75.8535	100
2640	75.944	111
2643	76.0345	108
2646	76.1251	109
2649	76.2156	119
2652	76.3061	87
2655	76.3965	94
2658	76.487	64
2661	76.5775	93
2664	76.668	101
2667	76.7584	79
2670	76.8489	82
2673	76.9394	107
2676	77.0298	71
2679	77.1202	76
2682	77.2107	98
2685	77.3011	85
2688	77.3915	90
2691	77.4819	69
2694	77.5723	97
2697	77.6627	82
2700	77.7531	57
2703	77.8435	85
2706	77.9339	76
2709	78.0243	78
2712	78.1147	102
2715	78.205	75
2718	78.2954	86
2721	78.3858	86
2724	78.4761	88
2727	78.5665	67
2730	78.6568	92
2733	78.7472	77
2736	78.8375	77
2739	78.9278	79
2742	79.0182	104
2745	79.1085	93
2748	79.1988	84
2751	79.2891	77
2754	79.3794	90
2757	79.4697	93
2760	79.56	85
2763	79.6503	102
2766	79.7406	96
2769	79.8309	73
2772	79.9212	88
2775	80.0115	77
2778	80.1017	90
2781	80.192	82
2784	80.2823	89
2787	80.3726	73
2790	80.4628	106
2793	80.5531	91
2796	80.6433	84
2799	80.7336	61
2802	80.8239	83
2805	80.9141	71
2808	81.0043	82
2811	81.0946	76
2814	81.1848	94
2817	81.2751	73
2820	81.3653	79
2823	81.4555	62
2826	81.5458	72
2829	81.636	84
2832	81.7262	91
2835	81.8165	78
2838	81.9067	81
2841	81.9969	61
2844	82.0871	69
2847	82.1773	75
2850	82.2676	88
2853	82.3578	71
2856	82.448	78
2859	82.5382	81
2862	82.6284	95
2865	82.7186	102
2868	82.8088	86
2871	82.899	76
2874	82.9893	77
2877	83.0795	95
2880	83.1697	73
2883	83.2599	86
2886	83.3501	86
2889	83.4403	86
2892	83.5305	74
2895	83.6207	89
2898	83.7109	94
2901	83.8011	84
2904	83.8913	88
2907	83.9815	99
2910	84.0717	79
2913	84.1619	90
2916	84.2521	67
2919	84.3423	93
2922	84.4325	96
2925	84.5227	86
2928	84.6129	86
2931	84.7031	106
2934	84.7933	84
2937	84.8835	99
2940	84.9737	92
2943	85.0639	105
2946	85.1541	91
2949	85.2443	83
2952	85.3346	97
2955	85.4248	104
2958	85.515	101
2961	85.6052	126
2964	85.6954	96
2967	85.7856	94
2970	85.8758	124
2973	85.9661	123
2976	86.0563	155
2979	86.1465	216
2982	86.2367	234
2985	86.327	390
2988	86.4172	558
2991	86.5074	702
2994	86.5977	821
2997	86.6879	1077
3000	86.7781	1310
3003	86.8684	1387
3006	86.9586	1451
3009	87.0489	1390
3012	87.1391	1253
3015	87.2294	1098
3018	87.3196	910
3021	87.4099	639
3024	87.5001	521
3027	87.5904	359
3030	87.6807	283
3033	87.7709	188
3036	87.8612	153
3039	87.9515	148
3042	88.0418	103
3045	88.1321	98
3048	88.2224	108
3051	88.3126	85
3054	88.4029	102
3057	88.4932	106
3060	88.5835	104
3063	88.6738	80
3066	88.7641	109
3069	88.8545	66
3072	88.9448	103
3075	89.0351	104
3078	89.1254	93
3081	89.2157	105
3084	89.3061	93
3087	89.3964	82
3090	89.4867	75
3093	89.577	76
3096	89.6674	91
3099	89.7577	85
3102	89.848	73
3105	89.9384	78
3108	90.0287	86
3111	90.1191	95
3114	90.2094	80
3117	90.2997	85
3120	90.3901	72
3123	90.4804	68
3126	90.5708	91
3129	90.6611	92
3132	90.7515	77
3135	90.8418	65
3138	90.9322	73
3141	91.0225	78
3144	91.1129	84
3147	91.2032	85
3150	91.2936	67
3153	91.3839	83
3156	91.4743	69
3159	91.5646	72
3162	91.655	73
3165	91.7453	72
3168	91.8357	78
3171	91.926	78
3174	92.0164	64
3177	92.1067	61
3180	92.1971	72
3183	92.2874	86
3186	92.3778	71
3189	92.4681	71
3192	92.5585	72
3195	92.6488	86
3198	92.7392	73
3201	92.8295	88
3204	92.9198	79
3207	93.0102	79
3210	93.1005	88
3213	93.1909	95
3216	93.2812	80
3219	93.3715	80
3222	93.4619	63
3225	93.5522	104
3228	93.6425	94
3231	93.7328	86
3234	93.8232	88
3237	93.9135	80
3240	94.0038	84
3243	94.0941	94
3246	94.1844	92
3249	94.2747	95
3252	94.365	80
3255	94.4553	85
3258	94.5456	62
3261	94.6359	90
3264	94.7262	68
3267	94.8165	82
3270	94.9068	77
3273	94.9971	66
3276	95.0874	82
3279	95.1776	86
3282	95.2679	86
3285	95.3582	86
3288	95.4484	88
3291	95.5387	72
3294	95.629	70
3297	95.7192	64
3300	95.8095	75
3303	95.8997	70
3306	95.99	63
3309	96.0802	85
3312	96.1704	76
3315	96.2607	81
3318	96.3509	91
3321	96.4412	92
3324	96.5314	74
3327	96.6216	69
3330	96.7118	91
3333	96.8021	76
3336	96.8923	80
3339	96.9825	86
3342	97.0727	75
3345	97.163	90
3348	97.2532	70
3351	97.3434	81
3354	97.4336	90
3357	97.5238	69
3360	97.614	92
3363	97.7043	78
3366	97.7945	105
3369	97.8847	82
3372	97.9749	97
3375	98.0651	86
3378	98.1553	87
3381	98.2455	87
3384	98.3357	93
3387	98.4259	122
3390	98.5161	93
3393	98.6063	91
3396	98.6965	104
3399	98.7867	105
3402	98.8769	87
3405	98.9671	115
3408	99.0573	127
3411	99.1475	105
3414	99.2378	99
3417	99.328	139
3420	99.4182	175
3423	99.5084	191
3426	99.5986	253
3429	99.6888	389
3432	99.779	580
3435	99.8692	782
3438	99.9594	1091
3441	100.05	1412
3444	100.14	1925
3447	100.23	2118
3450	100.32	2287
3453	100.41	2379
3456	100.501	2536
3459	100.591	2461
3462	100.681	2066
3465	100.771	1612
3468	100.862	1272
3471	100.952	998
3474	101.042	749
3477	101.132	520
3480	101.223	352
3483	101.313	274
3486	101.403	197
3489	101.493	165
3492	101.583	131
3495	101.674	114
3498	101.764	100
3501	101.854	96
3504	101.944	105
3507	102.035	126
3510	102.125	104
3513	102.215	121
3516	102.305	102
3519	102.396	97
3522	102.486	89
3525	102.576	107
3528	102.667	84
3531	102.757	79
3534	102.847	95
3537	102.937	106
3540	103.028	107
3543	103.118	95
3546	103.208	82
3549	103.299	88
3552	103.389	103
3555	103.479	96
3558	103.57	91
3561	103.66	72
3564	103.75	89
3567	103.841	92
3570	103.931	85
3573	104.021	92
3576	104.112	110
3579	104.202	101
3582	104.292	86
3585	104.383	92
3588	104.473	82
3591	104.563	89
3594	104.654	75
3597	104.744	97
3600	104.835	89
3603	104.925	77
3606	105.015	89
3609	105.106	81
3612	105.196	101
3615	105.287	110
3618	105.377	92
3621	105.467	93
3624	105.558	87
3627	105.648	83
3630	105.739	86
3633	105.829	76
3636	105.92	77
3639	106.01	83
3642	106.101	91
3645	106.191	87
3648	106.282	83
3651	106.372	85
3654	106.463	74
3657	106.553	60
3660	106.644	74
3663	106.734	78
3666	106.825	71
3669	106.915	82
3672	107.006	77
3675	107.096	98
3678	107.187	83
3681	107.277	84
3684	107.368	89
3687	107.459	98
3690	107.549	107
3693	107.64	70
3696	107.73	105
3699	107.821	75
3702	107.912	92
3705	108.002	81
3708	108.093	92
3711	108.183	89
3714	108.274	86
3717	108.365	110
3720	108.455	75
3723	108.546	98
3726	108.637	83
3729	108.727	75
3732	108.818	85
3735	108.909	90
3738	108.999	78
3741	109.09	80
3744	109.181	91
3747	109.271	87
3750	109.362	83
3753	109.453	86
3756	109.544	85
3759	109.634	86
3762	109.725	94
3765	109.816	74
3768	109.906	89
3771	109.997	108
3774	110.088	116
3777	110.179	91
3780	110.269	110
3783	110.36	110
3786	110.451	98
3789	110.542	85
3792	110.632	92
3795	110.723	75
3798	110.814	104
3801	110.905	106
3804	110.995	77
3807	111.086	97
3810	111.177	81
3813	111.268	92
3816	111.359	85
3819	111.449	94
3822	111.54	76
3825	111.631	101
3828	111.722	103
3831	111.812	94
3834	111.903	95
3837	111.994	106
3840	112.085	81
3843	112.176	83
3846	112.266	81
3849	112.357	96
3852	112.448	86
3855	112.539	93
3858	112.63	88
3861	112.721	84
3864	112.811	94
3867	112.902	88
3870	112.993	122
3873	113.084	120
3876	113.175	113
3879	113.265	120
3882	113.356	115
3885	113.447	94
3888	113.538	150
3891	113.629	168
3894	113.72	189
3897	113.81	309
3900	113.901	488
3903	113.992	650
3906	114.083	1003
3909	114.173	1315
3912	114.264	1453
3915	114.354	1226
3918	114.445	824
3921	114.536	399
3924	114.626	86
3927	114.717	1
3930	114.807	0
3933	114.898	0
3936	114.988	0
3939	115.079	0
3942	115.169	0
3945	115.26	0
3948	115.35	0
3951	115.441	0
3954	115.531	1
3957	115.622	0
3960	115.712	0
3963	115.803	0
3966	115.893	0
3969	115.984	0
3972	116.074	0
3975	116.165	0
3978	116.255	0
3981	116.346	0
3984	116.437	0
3987	116.527	0
3990	116.618	1
3993	116.708	0
3996	116.799	0
3999	116.889	0
4002	116.98	1
4005	117.07	0
4008	117.161	0
4011	117.251	0
4014	117.342	0
4017	117.432	0
4020	117.523	0
4023	117.613	1
4026	117.704	1
4029	117.794	0
4032	117.885	0
4035	117.975	0
4038	118.066	0
4041	118.157	0
4044	118.247	0
4047	118.338	1
4050	118.428	0
4053	118.519	0
4056	118.609	0
4059	118.7	0
4062	118.79	0
4065	118.881	0
4068	118.971	1
4071	119.062	0
4074	119.152	0
4077	119.243	0
4080	119.333	0
4083	119.424	0
4086	119.514	1
4089	119.605	2
4092	119.695	16
4095	119.786	130